ID,Age,Gender,trial_index_manual,condition,file_left,file_right,gapOf,decision_choice,signal_detection,confidence_rating,rt,trial_type,trial_index,time_elapsed,internal_node_id
111,11,Female,1,minus30_vs_0,1_minus_30.mp4,10_minus_0.mp4,9,Different,Hit,6,4783,html-keyboard-response,1,6723,0.0-1.0
111,,,2,0_vs_minus30,10_minus_0.mp4,10_minus_30.mp4,0,Different,FA,3,7455,html-keyboard-response,3,14694,0.0-3.0
111,,,3,plus30_vs_0,3_plus_30.mp4,3_minus_0.mp4,0,Different,FA,3,9107,html-keyboard-response,5,24308,0.0-5.0
111,,,4,0_vs_minus30,6_minus_0.mp4,6_minus_30.mp4,0,Same,CR,5,6574,html-keyboard-response,7,31390,0.0-7.0
111,,,5,plus30_vs_minus30,11_plus_30.mp4,3_minus_30.mp4,8,Different,Hit,6,4597,html-keyboard-response,9,36497,0.0-9.0
111,,,6,minus30_vs_0,12_minus_30.mp4,9_minus_0.mp4,3,Different,Hit,4,6747,html-keyboard-response,11,43759,0.0-11.0
111,,,7,minus30_vs_0,5_minus_30.mp4,10_minus_0.mp4,5,Different,Hit,6,4943,html-keyboard-response,13,49215,0.0-13.0
111,,,8,0_vs_plus30,1_minus_0.mp4,6_plus_30.mp4,5,Different,Hit,5,5458,html-keyboard-response,15,55180,0.0-15.0
111,,,9,plus30_vs_minus30,9_plus_30.mp4,9_minus_30.mp4,0,Same,CR,4,8001,html-keyboard-response,17,63691,0.0-17.0
111,,,10,plus30_vs_minus30,1_plus_30.mp4,1_minus_30.mp4,0,Same,CR,3,28791,html-keyboard-response,19,92985,0.0-19.0
111,,,11,0_vs_plus30,4_minus_0.mp4,4_plus_30.mp4,0,Same,CR,5,17388,html-keyboard-response,21,110889,0.0-21.0
111,,,12,0_vs_plus30,8_minus_0.mp4,4_plus_30.mp4,4,Different,Hit,6,4105,html-keyboard-response,23,115500,0.0-23.0
111,,,13,minus30_vs_plus30,12_minus_30.mp4,1_plus_30.mp4,11,Different,Hit,6,4212,html-keyboard-response,25,120214,0.0-25.0
111,,,14,minus30_vs_plus30,12_minus_30.mp4,12_plus_30.mp4,0,Same,CR,5,5051,html-keyboard-response,27,125780,0.0-27.0
111,,,15,plus30_vs_minus30,7_plus_30.mp4,7_minus_30.mp4,0,Same,CR,4,15269,html-keyboard-response,29,141566,0.0-29.0
111,,,16,minus30_vs_0,2_minus_30.mp4,12_minus_0.mp4,10,Different,Hit,6,3448,html-keyboard-response,31,145527,0.0-31.0
111,,,17,minus30_vs_plus30,11_minus_30.mp4,11_plus_30.mp4,0,Different,FA,4,6580,html-keyboard-response,33,152614,0.0-33.0
111,,,18,minus30_vs_0,7_minus_30.mp4,11_minus_0.mp4,4,Different,Hit,4,17295,html-keyboard-response,35,170426,0.0-35.0
111,,,19,0_vs_plus30,11_minus_0.mp4,11_plus_30.mp4,0,Different,FA,4,24228,html-keyboard-response,37,195173,0.0-37.0
111,,,20,0_vs_minus30,1_minus_0.mp4,12_minus_30.mp4,11,Different,Hit,6,3232,html-keyboard-response,39,198908,0.0-39.0
111,,,21,0_vs_plus30,2_minus_0.mp4,2_plus_30.mp4,0,Same,CR,4,4535,html-keyboard-response,41,203952,0.0-41.0
111,,,22,0_vs_minus30,4_minus_0.mp4,4_minus_30.mp4,0,Different,FA,4,7970,html-keyboard-response,43,212434,0.0-43.0
111,,,23,0_vs_plus30,7_minus_0.mp4,7_plus_30.mp4,0,Same,CR,5,15080,html-keyboard-response,45,228036,0.0-45.0
111,,,24,0_vs_minus30,12_minus_0.mp4,1_minus_30.mp4,11,Different,Hit,6,3035,html-keyboard-response,47,231578,0.0-47.0
111,,,25,0_vs_minus30,12_minus_0.mp4,11_minus_30.mp4,1,Different,Hit,4,7747,html-keyboard-response,49,239829,0.0-49.0
111,,,26,minus30_vs_0,5_minus_30.mp4,5_minus_0.mp4,0,Different,FA,4,21261,html-keyboard-response,51,261604,0.0-51.0
111,,,27,minus30_vs_plus30,4_minus_30.mp4,8_plus_30.mp4,4,Different,Hit,6,3274,html-keyboard-response,53,265387,0.0-53.0
111,,,28,plus30_vs_0,7_plus_30.mp4,7_minus_0.mp4,0,Same,CR,4,9711,html-keyboard-response,55,275630,0.0-55.0
111,,,29,plus30_vs_minus30,11_plus_30.mp4,11_minus_30.mp4,0,Same,CR,4,17763,html-keyboard-response,57,293910,0.0-57.0
111,,,30,0_vs_plus30,10_minus_0.mp4,1_plus_30.mp4,10,Different,Hit,6,3950,html-keyboard-response,59,298367,0.0-59.0
111,,,31,0_vs_minus30,8_minus_0.mp4,8_minus_30.mp4,0,Different,FA,3,6038,html-keyboard-response,61,304921,0.0-61.0
111,,,32,plus30_vs_0,2_plus_30.mp4,3_minus_0.mp4,1,Different,Hit,5,7847,html-keyboard-response,63,313282,0.0-63.0
111,,,33,plus30_vs_minus30,10_plus_30.mp4,4_minus_30.mp4,6,Different,Hit,6,4588,html-keyboard-response,65,318383,0.0-65.0
111,,,34,0_vs_plus30,9_minus_0.mp4,2_plus_30.mp4,7,Different,Hit,6,5090,html-keyboard-response,67,323980,0.0-67.0
111,,,35,minus30_vs_0,2_minus_30.mp4,10_minus_0.mp4,8,Different,Hit,6,3395,html-keyboard-response,69,327884,0.0-69.0
111,,,36,minus30_vs_plus30,12_minus_30.mp4,1_plus_30.mp4,10,Different,Hit,6,5379,html-keyboard-response,71,333776,0.0-71.0
111,,,37,minus30_vs_plus30,3_minus_30.mp4,3_plus_30.mp4,0,Same,CR,4,4862,html-keyboard-response,73,339157,0.0-73.0
111,,,38,minus30_vs_plus30,1_minus_30.mp4,12_plus_30.mp4,11,Different,Hit,6,6998,html-keyboard-response,75,346665,0.0-75.0
111,,,39,minus30_vs_0,11_minus_30.mp4,11_minus_0.mp4,0,Different,FA,3,9781,html-keyboard-response,77,356954,0.0-77.0
111,,,40,0_vs_plus30,1_minus_0.mp4,7_plus_30.mp4,6,Different,Hit,6,3185,html-keyboard-response,79,360649,0.0-79.0
111,,,41,minus30_vs_0,2_minus_30.mp4,2_minus_0.mp4,0,Same,CR,4,4485,html-keyboard-response,81,365648,0.0-81.0
111,,,42,plus30_vs_minus30,10_plus_30.mp4,12_minus_30.mp4,2,Different,Hit,3,10282,html-keyboard-response,83,376437,0.0-83.0
111,,,43,minus30_vs_plus30,8_minus_30.mp4,5_plus_30.mp4,3,Different,Hit,5,6406,html-keyboard-response,85,383347,0.0-85.0
111,,,44,plus30_vs_minus30,10_plus_30.mp4,10_minus_30.mp4,0,Same,CR,4,8335,html-keyboard-response,87,392192,0.0-87.0
111,,,45,0_vs_plus30,6_minus_0.mp4,7_plus_30.mp4,1,Different,Hit,6,3367,html-keyboard-response,89,396066,0.0-89.0
111,,,46,plus30_vs_0,10_plus_30.mp4,6_minus_0.mp4,4,Different,Hit,6,3089,html-keyboard-response,91,399667,0.0-91.0
111,,,47,minus30_vs_plus30,1_minus_30.mp4,1_plus_30.mp4,0,Same,CR,3,5794,html-keyboard-response,93,405970,0.0-93.0
111,,,48,0_vs_minus30,2_minus_0.mp4,2_minus_30.mp4,0,Same,CR,4,15844,html-keyboard-response,95,422327,0.0-95.0
111,,,49,plus30_vs_minus30,1_plus_30.mp4,11_minus_30.mp4,10,Different,Hit,6,3129,html-keyboard-response,97,425966,0.0-97.0
111,,,50,0_vs_plus30,8_minus_0.mp4,6_plus_30.mp4,2,Different,Hit,5,5920,html-keyboard-response,99,432398,0.0-99.0
111,,,51,minus30_vs_0,2_minus_30.mp4,9_minus_0.mp4,7,Different,Hit,6,3596,html-keyboard-response,101,436503,0.0-101.0
111,,,52,minus30_vs_plus30,11_minus_30.mp4,1_plus_30.mp4,10,Different,Hit,6,3815,html-keyboard-response,103,440827,0.0-103.0
111,,,53,minus30_vs_0,4_minus_30.mp4,4_minus_0.mp4,0,Same,CR,4,8204,html-keyboard-response,105,449550,0.0-105.0
111,,,54,minus30_vs_0,7_minus_30.mp4,7_minus_0.mp4,0,Different,FA,4,13919,html-keyboard-response,107,463982,0.0-107.0
111,,,55,minus30_vs_0,4_minus_30.mp4,5_minus_0.mp4,1,Different,Hit,3,12553,html-keyboard-response,109,477054,0.0-109.0
111,,,56,minus30_vs_0,11_minus_30.mp4,2_minus_0.mp4,9,Different,Hit,6,2869,html-keyboard-response,111,480434,0.0-111.0
111,,,57,plus30_vs_minus30,12_plus_30.mp4,12_minus_30.mp4,0,Same,CR,3,5046,html-keyboard-response,113,485990,0.0-113.0
111,,,58,plus30_vs_minus30,7_plus_30.mp4,6_minus_30.mp4,1,Different,Hit,5,7862,html-keyboard-response,115,494370,0.0-115.0
111,,,59,plus30_vs_minus30,3_plus_30.mp4,3_minus_30.mp4,0,Same,CR,4,20337,html-keyboard-response,117,515226,0.0-117.0
111,,,60,0_vs_minus30,12_minus_0.mp4,2_minus_30.mp4,10,Different,Hit,6,2586,html-keyboard-response,119,518319,0.0-119.0
111,,,61,plus30_vs_0,8_plus_30.mp4,8_minus_0.mp4,0,Different,FA,3,4211,html-keyboard-response,121,523041,0.0-121.0
111,,,62,plus30_vs_minus30,4_plus_30.mp4,4_minus_30.mp4,0,Different,FA,3,9834,html-keyboard-response,123,533390,0.0-123.0
111,,,63,0_vs_plus30,12_minus_0.mp4,12_plus_30.mp4,0,Different,FA,5,6135,html-keyboard-response,125,540037,0.0-125.0
111,,,64,0_vs_plus30,5_minus_0.mp4,8_plus_30.mp4,3,Different,Hit,6,4442,html-keyboard-response,127,544988,0.0-127.0
111,,,65,plus30_vs_0,10_plus_30.mp4,10_minus_0.mp4,0,Different,FA,4,7294,html-keyboard-response,129,552798,0.0-129.0
111,,,66,plus30_vs_minus30,12_plus_30.mp4,4_minus_30.mp4,8,Different,Hit,6,2701,html-keyboard-response,131,556012,0.0-131.0
111,,,67,minus30_vs_plus30,6_minus_30.mp4,6_plus_30.mp4,0,Same,CR,5,13322,html-keyboard-response,133,569836,0.0-133.0
111,,,68,0_vs_plus30,10_minus_0.mp4,2_plus_30.mp4,8,Different,Hit,6,3142,html-keyboard-response,135,573496,0.0-135.0
111,,,69,plus30_vs_0,11_plus_30.mp4,11_minus_0.mp4,0,Different,FA,3,6731,html-keyboard-response,137,580732,0.0-137.0
111,,,70,0_vs_plus30,7_minus_0.mp4,5_plus_30.mp4,2,Different,Hit,4,10041,html-keyboard-response,139,591292,0.0-139.0
111,,,71,0_vs_minus30,6_minus_0.mp4,10_minus_30.mp4,4,Different,Hit,6,4265,html-keyboard-response,141,596062,0.0-141.0
111,,,72,0_vs_plus30,3_minus_0.mp4,3_plus_30.mp4,0,Same,CR,4,7255,html-keyboard-response,144,663832,0.0-144.0
111,,,73,minus30_vs_0,6_minus_30.mp4,6_minus_0.mp4,0,Different,FA,5,8979,html-keyboard-response,146,673320,0.0-146.0
111,,,74,plus30_vs_minus30,5_plus_30.mp4,5_minus_30.mp4,0,Same,CR,4,4118,html-keyboard-response,148,677959,0.0-148.0
111,,,75,0_vs_minus30,9_minus_0.mp4,6_minus_30.mp4,3,Different,Hit,6,3051,html-keyboard-response,150,681518,0.0-150.0
111,,,76,plus30_vs_minus30,6_plus_30.mp4,11_minus_30.mp4,5,Different,Hit,6,4515,html-keyboard-response,152,686542,0.0-152.0
111,,,77,0_vs_minus30,1_minus_0.mp4,1_minus_30.mp4,0,Same,CR,5,8226,html-keyboard-response,154,695273,0.0-154.0
111,,,78,0_vs_minus30,3_minus_0.mp4,3_minus_30.mp4,0,Different,FA,5,6971,html-keyboard-response,156,702752,0.0-156.0
111,,,79,minus30_vs_0,9_minus_30.mp4,3_minus_0.mp4,6,Different,Hit,6,2599,html-keyboard-response,158,705869,0.0-158.0
111,,,80,plus30_vs_0,12_plus_30.mp4,12_minus_0.mp4,0,Same,CR,4,7688,html-keyboard-response,160,714078,0.0-160.0
111,,,81,plus30_vs_0,1_plus_30.mp4,5_minus_0.mp4,4,Different,Hit,5,5034,html-keyboard-response,162,719617,0.0-162.0
111,,,82,0_vs_minus30,12_minus_0.mp4,12_minus_30.mp4,0,Same,CR,3,14866,html-keyboard-response,164,735000,0.0-164.0
111,,,83,0_vs_plus30,5_minus_0.mp4,5_plus_30.mp4,0,Same,CR,3,4973,html-keyboard-response,166,740492,0.0-166.0
111,,,84,minus30_vs_plus30,10_minus_30.mp4,10_plus_30.mp4,0,Same,CR,4,17341,html-keyboard-response,168,758347,0.0-168.0
111,,,85,minus30_vs_plus30,8_minus_30.mp4,8_plus_30.mp4,0,Different,FA,4,4436,html-keyboard-response,170,763305,0.0-170.0
111,,,86,0_vs_minus30,1_minus_0.mp4,8_minus_30.mp4,7,Different,Hit,6,2871,html-keyboard-response,172,766682,0.0-172.0
111,,,87,0_vs_plus30,2_minus_0.mp4,7_plus_30.mp4,5,Different,Hit,6,4324,html-keyboard-response,174,771524,0.0-174.0
111,,,88,minus30_vs_plus30,3_minus_30.mp4,12_plus_30.mp4,0,Different,FA,6,4536,html-keyboard-response,176,776578,0.0-176.0
111,,,89,0_vs_minus30,10_minus_0.mp4,11_minus_30.mp4,1,Different,Hit,4,5671,html-keyboard-response,178,782767,0.0-178.0
111,,,90,minus30_vs_plus30,2_minus_30.mp4,11_plus_30.mp4,9,Different,Hit,6,2466,html-keyboard-response,180,785752,0.0-180.0
111,,,91,minus30_vs_0,12_minus_30.mp4,12_minus_0.mp4,0,Different,FA,6,3117,html-keyboard-response,182,789380,0.0-182.0
111,,,92,minus30_vs_plus30,10_minus_30.mp4,3_plus_30.mp4,7,Different,Hit,6,3368,html-keyboard-response,184,793252,0.0-184.0
111,,,93,plus30_vs_minus30,8_plus_30.mp4,8_minus_30.mp4,0,Same,CR,4,13092,html-keyboard-response,186,806861,0.0-186.0
111,,,94,plus30_vs_0,12_plus_30.mp4,1_minus_0.mp4,11,Different,Hit,6,2564,html-keyboard-response,188,809934,0.0-188.0
111,,,95,plus30_vs_minus30,2_plus_30.mp4,2_minus_30.mp4,0,Different,FA,3,7541,html-keyboard-response,190,817988,0.0-190.0
111,,,96,plus30_vs_0,5_plus_30.mp4,5_minus_0.mp4,0,Different,FA,4,8591,html-keyboard-response,192,827082,0.0-192.0
111,,,97,minus30_vs_0,3_minus_30.mp4,3_minus_0.mp4,0,Different,FA,5,8849,html-keyboard-response,194,836437,0.0-194.0
111,,,98,0_vs_plus30,11_minus_0.mp4,1_plus_30.mp4,10,Different,Hit,6,2248,html-keyboard-response,196,839200,0.0-196.0
111,,,99,minus30_vs_plus30,7_minus_30.mp4,8_plus_30.mp4,1,Same,Miss,4,6396,html-keyboard-response,198,846103,0.0-198.0
111,,,100,minus30_vs_plus30,2_minus_30.mp4,4_plus_30.mp4,2,Different,Hit,3,5289,html-keyboard-response,200,851910,0.0-200.0
111,,,101,plus30_vs_minus30,1_plus_30.mp4,10_minus_30.mp4,9,Different,Hit,6,2589,html-keyboard-response,202,855013,0.0-202.0
111,,,102,plus30_vs_0,1_plus_30.mp4,12_minus_0.mp4,11,Different,Hit,6,2733,html-keyboard-response,204,858257,0.0-204.0
111,,,103,minus30_vs_0,1_minus_30.mp4,1_minus_0.mp4,0,Different,FA,4,4687,html-keyboard-response,206,863452,0.0-206.0
111,,,104,plus30_vs_0,3_plus_30.mp4,10_minus_0.mp4,7,Different,Hit,6,2700,html-keyboard-response,208,866656,0.0-208.0
111,,,105,plus30_vs_0,6_plus_30.mp4,6_minus_0.mp4,0,Same,CR,3,9018,html-keyboard-response,210,876192,0.0-210.0
111,,,106,minus30_vs_0,4_minus_30.mp4,8_minus_0.mp4,0,Different,FA,6,4632,html-keyboard-response,212,881341,0.0-212.0
111,,,107,minus30_vs_0,9_minus_30.mp4,9_minus_0.mp4,0,Different,FA,4,4204,html-keyboard-response,214,886048,0.0-214.0
111,,,108,0_vs_plus30,1_minus_0.mp4,1_plus_30.mp4,0,Different,FA,3,16754,html-keyboard-response,216,903309,0.0-216.0
111,,,109,0_vs_minus30,11_minus_0.mp4,11_minus_30.mp4,0,Different,FA,5,3896,html-keyboard-response,218,907710,0.0-218.0
111,,,110,0_vs_minus30,9_minus_0.mp4,9_minus_30.mp4,0,Different,FA,3,6215,html-keyboard-response,220,914436,0.0-220.0
111,,,111,minus30_vs_plus30,7_minus_30.mp4,7_plus_30.mp4,0,Same,CR,5,4754,html-keyboard-response,222,919700,0.0-222.0
111,,,112,minus30_vs_0,8_minus_30.mp4,8_minus_0.mp4,0,Different,FA,6,4751,html-keyboard-response,224,924965,0.0-224.0
111,,,113,plus30_vs_minus30,11_plus_30.mp4,11_minus_30.mp4,0,Same,CR,4,5879,html-keyboard-response,226,931348,0.0-226.0
111,,,114,0_vs_minus30,10_minus_0.mp4,10_minus_30.mp4,0,Different,FA,4,5810,html-keyboard-response,228,937672,0.0-228.0
111,,,115,0_vs_plus30,11_minus_0.mp4,11_plus_30.mp4,0,Same,CR,5,10171,html-keyboard-response,230,948347,0.0-230.0
111,,,116,minus30_vs_0,5_minus_30.mp4,7_minus_0.mp4,2,Different,Hit,6,4365,html-keyboard-response,232,953224,0.0-232.0
111,,,117,plus30_vs_minus30,8_plus_30.mp4,2_minus_30.mp4,6,Different,Hit,6,4180,html-keyboard-response,234,957941,0.0-234.0
111,,,118,plus30_vs_0,2_plus_30.mp4,2_minus_0.mp4,0,Same,CR,4,9667,html-keyboard-response,236,968117,0.0-236.0
111,,,119,minus30_vs_0,3_minus_30.mp4,6_minus_0.mp4,3,Different,Hit,5,3996,html-keyboard-response,238,972623,0.0-238.0
111,,,120,plus30_vs_0,1_plus_30.mp4,1_minus_0.mp4,0,Different,FA,3,5686,html-keyboard-response,240,978828,0.0-240.0
111,,,121,plus30_vs_minus30,6_plus_30.mp4,9_minus_30.mp4,3,Different,Hit,6,3170,html-keyboard-response,242,982503,0.0-242.0
111,,,122,0_vs_plus30,2_minus_0.mp4,8_plus_30.mp4,6,Different,Hit,6,2671,html-keyboard-response,244,985683,0.0-244.0
111,,,123,0_vs_minus30,5_minus_0.mp4,5_minus_30.mp4,0,Different,FA,3,6820,html-keyboard-response,246,993012,0.0-246.0
111,,,124,plus30_vs_0,10_plus_30.mp4,10_minus_0.mp4,0,Same,CR,4,7108,html-keyboard-response,248,1000635,0.0-248.0
111,,,125,plus30_vs_0,3_plus_30.mp4,12_minus_0.mp4,9,Different,Hit,6,2969,html-keyboard-response,250,1004112,0.0-250.0
111,,,126,plus30_vs_minus30,4_plus_30.mp4,9_minus_30.mp4,5,Different,Hit,6,2881,html-keyboard-response,252,1007498,0.0-252.0
111,,,127,0_vs_plus30,9_minus_0.mp4,9_plus_30.mp4,0,Different,FA,3,8336,html-keyboard-response,254,1016345,0.0-254.0
111,,,128,0_vs_minus30,12_minus_0.mp4,3_minus_30.mp4,9,Different,Hit,6,3064,html-keyboard-response,256,1019923,0.0-256.0
111,,,129,0_vs_minus30,2_minus_0.mp4,2_minus_30.mp4,0,Same,CR,3,4228,html-keyboard-response,258,1024653,0.0-258.0
111,,,130,plus30_vs_minus30,11_plus_30.mp4,4_minus_30.mp4,7,Different,Hit,6,3237,html-keyboard-response,260,1028396,0.0-260.0
111,,,131,plus30_vs_0,3_plus_30.mp4,9_minus_0.mp4,6,Different,Hit,6,3442,html-keyboard-response,262,1032349,0.0-262.0
111,,,132,minus30_vs_0,7_minus_30.mp4,12_minus_0.mp4,5,Different,Hit,5,4161,html-keyboard-response,264,1037018,0.0-264.0
111,,,133,0_vs_minus30,4_minus_0.mp4,6_minus_30.mp4,2,Different,Hit,3,7355,html-keyboard-response,266,1044879,0.0-266.0
111,,,134,0_vs_plus30,1_minus_0.mp4,9_plus_30.mp4,8,Different,Hit,6,3445,html-keyboard-response,268,1048828,0.0-268.0
111,,,135,minus30_vs_0,6_minus_30.mp4,12_minus_0.mp4,6,Different,Hit,6,3480,html-keyboard-response,270,1052821,0.0-270.0
111,,,136,plus30_vs_0,3_plus_30.mp4,11_minus_0.mp4,8,Different,Hit,6,2397,html-keyboard-response,272,1055728,0.0-272.0
111,,,137,minus30_vs_0,3_minus_30.mp4,8_minus_0.mp4,5,Different,Hit,6,2398,html-keyboard-response,274,1058630,0.0-274.0
111,,,138,0_vs_minus30,4_minus_0.mp4,4_minus_30.mp4,0,Same,CR,4,6463,html-keyboard-response,276,1065606,0.0-276.0
111,,,139,minus30_vs_0,7_minus_30.mp4,10_minus_0.mp4,3,Different,Hit,3,5400,html-keyboard-response,278,1071515,0.0-278.0
111,,,140,minus30_vs_0,2_minus_30.mp4,12_minus_0.mp4,10,Different,Hit,6,2930,html-keyboard-response,280,1074960,0.0-280.0
111,,,141,plus30_vs_minus30,1_plus_30.mp4,1_minus_30.mp4,0,Different,FA,4,15026,html-keyboard-response,282,1090501,0.0-282.0
111,,,142,0_vs_plus30,6_minus_0.mp4,6_plus_30.mp4,0,Same,CR,4,4616,html-keyboard-response,284,1095626,0.0-284.0